USUBJID,AETERM,AESTDTC,AEENDTC,AESEV,AEOUT,AEDECOD,AESERY,AEACN,AESTDY,USUBJID_DM
S001,RASH,2024-01-10,2024-01-05,MILD,RECOVERED,Rash,N,DOSE REDUCED,10,S001
S001,HEADACHE,2024-02-01,2024-02-15,,RECOVERED,Headache,N,NONE,32,S001
S002,NAUSEA,2024-03-05,2024-03-10,MILD,RECOVERED,Nausea,N,NONE,65,S002
S002,FATIGUE,2024-04-01,2024-03-30,MODERATE,,Fatigue,N,NONE,92,S002
S003,DIZZINESS,2024-01-20,2024-01-25,MILD,RECOVERED,Dizziness,N,NONE,20,S003
S004,VOMITING,2024-02-10,2024-02-08,SEVERE,NOT RECOVERED,,Y,,41,S004
S004,RASH,2024-03-01,2024-03-10,MILD,RECOVERED,Rash,N,NONE,61,S004
S005,HEADACHE,2024-01-15,2024-01-20,,RECOVERED,Headache,N,NONE,15,S005
