USUBJID,LBTEST,LBTESTCD,LBORRES,LBNRLO,LBNRHI,LBORRESU,VISITNUM,VISIT,LBDTC,LBMETHOD
S001,Sodium,NA,155,136,145,mEq/L,1,V1,2024-01-11,DIRECT
S001,Potassium,K,2.8,3.5,5.1,mEq/L,1,V1,2024-01-11,DIRECT
S002,Sodium,NA,138,136,145,mEq/L,1,V1,2024-03-06,DIRECT
S002,Glucose,GLU,250,70,100,mg/dL,1,V1,,DIRECT
S003,Potassium,K,4.5,3.5,5.1,mEq/L,1,V1,2024-01-21,DIRECT
S003,Sodium,NA,140,136,145,mEq/L,2,V2,2024-03-15,INDIRECT
S004,Glucose,GLU,65,70,100,mg/dL,1,V1,2024-02-11,DIRECT
S005,Haemoglobin,HGB,8.5,11.5,16.0,g/dL,1,V1,2024-01-16,DIRECT
